File: stock/TGA.csv
,adjclose,close,date,high,low,open,volume
0,1.39832,1.44,2017-12-29,1.44,1.41,1.43,57600
5,1.2915,1.33,2017-12-21,1.33,1.29,1.3,132500
10,1.2915,1.33,2017-12-14,1.34,1.31,1.34,102200
15,1.32063,1.36,2017-12-07,1.38,1.34,1.37,34200
20,1.40803,1.45,2017-11-30,1.46,1.43,1.44,99100
25,1.44687,1.49,2017-11-22,1.53,1.48,1.48,116900
30,1.43716,1.48,2017-11-15,1.5,1.43,1.5,49300
35,1.476,1.52,2017-11-08,1.57,1.51,1.56,20400
40,1.71877,1.77,2017-11-01,1.77,1.68,1.68,151400
45,1.49542,1.54,2017-10-25,1.58,1.54,1.57,19400
50,1.54398,1.59,2017-10-18,1.59,1.54,1.57,46000
55,1.59253,1.64,2017-10-11,1.64,1.54,1.56,115000
60,1.39832,1.44,2017-10-04,1.45,1.4,1.42,47700
65,1.32063,1.36,2017-09-27,1.37,1.32,1.33,99300
70,1.12642,1.16,2017-09-20,1.18,1.14,1.15,129100
75,1.17498,1.21,2017-09-13,1.25,1.12,1.16,144800
80,1.24295,1.28,2017-09-06,1.33,1.28,1.3,34700
85,1.25266,1.29,2017-08-29,1.33,1.24,1.24,23500
90,1.16527,1.2,2017-08-22,1.24,1.17,1.2,72600
95,1.14584,1.18,2017-08-15,1.22,1.18,1.19,65700
100,1.20411,1.24,2017-08-08,1.28,1.23,1.25,65800
105,1.30121,1.34,2017-08-01,1.36,1.33,1.35,6200
110,1.31092,1.35,2017-07-25,1.36,1.34,1.35,41000
115,1.32063,1.36,2017-07-18,1.37,1.34,1.36,39200
120,1.23324,1.27,2017-07-11,1.29,1.26,1.27,24700
125,1.28179,1.32,2017-07-03,1.35,1.3,1.33,10100
130,1.28179,1.32,2017-06-26,1.33,1.27,1.33,18900
135,1.2915,1.33,2017-06-19,1.39,1.28,1.28,223200
140,1.2915,1.33,2017-06-12,1.4,1.33,1.4,104000
145,1.36919,1.41,2017-06-05,1.46,1.39,1.44,82900
150,1.44687,1.49,2017-05-26,1.52,1.48,1.5,43300
155,1.55369,1.6,2017-05-19,1.63,1.58,1.6,22900
160,1.45658,1.5,2017-05-12,1.54,1.48,1.52,84800
165,1.35948,1.4,2017-05-05,1.41,1.37,1.37,42100
170,1.41774,1.46,2017-04-28,1.51,1.46,1.51,80400
175,1.48571,1.53,2017-04-21,1.58,1.47,1.54,119700
180,1.52456,1.57,2017-04-13,1.65,1.57,1.65,58800
185,1.55369,1.6,2017-04-06,1.63,1.57,1.57,73500
190,1.54398,1.59,2017-03-30,1.63,1.57,1.63,43200
195,1.45658,1.5,2017-03-23,1.53,1.47,1.51,91100
200,1.49542,1.54,2017-03-16,1.59,1.5,1.55,119300
205,1.52456,1.57,2017-03-09,1.6,1.56,1.59,95500
210,1.60224,1.65,2017-03-02,1.68,1.63,1.67,84800
215,1.62166,1.67,2017-02-23,1.75,1.65,1.72,181600
220,1.69935,1.75,2017-02-15,1.81,1.72,1.8,101000
225,1.61195,1.66,2017-02-08,1.75,1.65,1.68,56600
230,1.67021,1.72,2017-02-01,1.76,1.69,1.73,106900
235,1.67993,1.73,2017-01-25,1.81,1.72,1.76,95100
240,1.67021,1.72,2017-01-18,1.78,1.72,1.78,35400
245,1.72848,1.78,2017-01-10,1.8,1.73,1.76,114100
250,1.77703,1.83,2017-01-03,1.83,1.69,1.73,255000
255,1.63137,1.68,2016-12-23,1.7,1.65,1.68,79100
260,1.67993,1.73,2016-12-16,1.73,1.64,1.67,129000
265,1.69935,1.75,2016-12-09,1.79,1.73,1.73,142600
270,1.83529,1.89,2016-12-02,1.96,1.84,1.95,104500
275,1.73819,1.79,2016-11-25,1.82,1.77,1.78,11500
280,1.70906,1.76,2016-11-17,1.84,1.76,1.79,76800
285,1.75761,1.81,2016-11-10,1.87,1.78,1.82,47400
290,1.76732,1.82,2016-11-03,1.84,1.77,1.83,19300
295,1.79645,1.85,2016-10-27,1.9,1.85,1.85,36700
300,1.99066,2.05,2016-10-20,2.09,2.04,2.05,17100
305,2.06835,2.13,2016-10-13,2.13,2.02,2.07,79800
310,2.01979,2.08,2016-10-06,2.09,2.02,2.07,62800
315,1.89356,1.95,2016-09-29,2.0,1.93,1.97,60200
320,1.86443,1.92,2016-09-22,2.1,1.92,2.02,98300
325,1.89356,1.95,2016-09-15,1.98,1.88,1.91,131800
330,1.91298,1.97,2016-09-08,1.99,1.96,1.98,90600
335,1.79645,1.85,2016-08-31,1.87,1.81,1.86,69500
340,1.85472,1.91,2016-08-24,2.03,1.9,1.95,99200
345,1.94211,2.0,2016-08-17,2.06,1.91,1.95,157000
350,1.5634,1.61,2016-08-10,1.63,1.59,1.62,103500
355,1.55369,1.6,2016-08-03,1.64,1.58,1.6,99200
360,1.58282,1.63,2016-07-27,1.72,1.6,1.72,31100
365,1.6605,1.71,2016-07-20,1.73,1.7,1.71,41100
370,1.69935,1.75,2016-07-13,1.81,1.73,1.79,17300
375,1.68964,1.74,2016-07-06,1.78,1.7,1.77,65600
380,1.80616,1.86,2016-06-28,1.92,1.78,1.78,31200
385,1.67021,1.72,2016-06-21,1.74,1.6,1.6,57100
390,1.61195,1.66,2016-06-14,1.75,1.65,1.72,92800
395,1.72848,1.78,2016-06-07,1.78,1.71,1.73,100600
400,1.64108,1.69,2016-05-31,1.73,1.69,1.71,36300
405,1.72848,1.78,2016-05-23,1.83,1.7,1.75,81200
410,1.88385,1.94,2016-05-16,1.97,1.92,1.97,105000
415,1.78674,1.84,2016-05-09,1.91,1.73,1.91,249200
420,1.88385,1.94,2016-05-02,1.95,1.89,1.92,45900
425,1.86443,1.92,2016-04-25,1.97,1.88,1.96,79300
430,1.7479,1.8,2016-04-18,1.8,1.68,1.69,106800
435,1.67993,1.73,2016-04-11,1.78,1.7,1.76,136700
440,1.63137,1.68,2016-04-04,1.7,1.66,1.7,57900
445,1.60224,1.65,2016-03-28,1.71,1.65,1.66,65300
450,1.64108,1.69,2016-03-18,1.74,1.64,1.72,138000
455,1.67021,1.72,2016-03-11,1.76,1.68,1.71,193900
460,1.61195,1.66,2016-03-04,1.75,1.64,1.64,194400
465,1.39832,1.44,2016-02-26,1.53,1.43,1.53,110800
470,1.34006,1.38,2016-02-19,1.41,1.33,1.38,52100
475,1.15556,1.19,2016-02-11,1.22,1.16,1.19,60600
480,1.27208,1.31,2016-02-04,1.36,1.27,1.28,152000
485,1.38861,1.43,2016-01-28,1.47,1.35,1.38,231800
490,1.02932,1.06,2016-01-21,1.11,1.03,1.05,265100
495,1.21382,1.25,2016-01-13,1.39,1.23,1.38,216400
500,1.65079,1.7,2016-01-06,1.72,1.67,1.71,92800
505,1.68964,1.74,2015-12-29,1.81,1.69,1.7,96800
510,1.64108,1.69,2015-12-21,1.71,1.64,1.68,114200
515,1.61195,1.66,2015-12-14,1.68,1.56,1.64,234000
520,1.73176,1.81,2015-12-07,1.97,1.78,1.95,381800
525,1.93269,2.02,2015-11-30,2.06,1.95,1.99,642900
530,1.91355,2.0,2015-11-20,2.07,1.99,2.0,329800
535,2.0762,2.17,2015-11-13,2.33,2.16,2.33,343500
540,2.60243,2.72,2015-11-06,2.75,2.69,2.72,57100
545,2.60243,2.72,2015-10-30,2.75,2.58,2.64,203500
550,2.53545,2.65,2015-10-23,2.7,2.61,2.69,76100
555,2.612,2.73,2015-10-16,2.84,2.67,2.84,231000
560,2.88946,3.02,2015-10-09,3.1,2.99,3.08,83800
565,2.6694,2.79,2015-10-02,2.82,2.65,2.66,141600
570,2.51632,2.63,2015-09-25,2.71,2.53,2.71,179400
575,2.53545,2.65,2015-09-18,2.85,2.63,2.85,112100
580,2.55459,2.67,2015-09-11,2.7,2.56,2.7,111300
585,2.62972,2.8,2015-09-03,2.93,2.74,2.85,248500
590,2.8833,3.07,2015-08-27,3.19,2.86,2.92,185400
595,2.51702,2.68,2015-08-20,2.83,2.64,2.7,74000
600,2.77999,2.96,2015-08-13,3.11,2.9,3.09,253000
605,2.85513,3.04,2015-08-06,3.08,2.82,2.93,155300
610,2.80817,2.99,2015-07-30,3.08,2.94,2.97,118200
615,2.75182,2.93,2015-07-23,3.2,2.93,3.13,248100
620,3.20263,3.41,2015-07-16,3.63,3.41,3.63,172900
625,3.53134,3.76,2015-07-09,3.91,3.76,3.86,129600
630,3.63465,3.87,2015-07-01,3.99,3.77,3.95,154900
635,3.85067,4.1,2015-06-24,4.18,4.05,4.06,90900
640,3.691,3.93,2015-06-17,4.1,3.88,4.1,205900
645,3.86006,4.16,2015-06-10,4.26,4.11,4.24,161700
650,3.79511,4.09,2015-06-03,4.14,4.01,4.1,196300
655,3.7116,4.0,2015-05-27,4.08,4.0,4.06,148300
660,3.77655,4.07,2015-05-19,4.1,3.93,4.1,378500
665,3.77655,4.07,2015-05-12,4.23,4.06,4.13,168900
670,4.2405,4.57,2015-05-05,4.77,4.53,4.7,290600
675,4.05492,4.37,2015-04-28,4.43,4.24,4.4,278500
680,4.05492,4.37,2015-04-21,4.37,4.26,4.33,289500
685,3.77655,4.07,2015-04-14,4.18,4.04,4.16,200000
690,3.63736,3.92,2015-04-07,4.03,3.9,4.03,268400
695,3.22909,3.48,2015-03-30,3.62,3.41,3.58,304800
700,3.07134,3.31,2015-03-23,3.47,3.28,3.35,330300
705,2.54244,2.74,2015-03-16,2.81,2.72,2.81,341100
710,2.70962,2.97,2015-03-09,3.06,2.97,2.99,245100
715,2.70962,2.97,2015-03-02,2.97,2.82,2.92,267600
720,2.68225,2.94,2015-02-23,3.01,2.89,2.97,336700
725,3.01069,3.3,2015-02-13,3.38,3.27,3.31,302300
730,2.91033,3.19,2015-02-06,3.31,3.11,3.11,355900
735,2.65488,2.91,2015-01-30,2.95,2.71,2.75,286200
740,2.62751,2.88,2015-01-23,2.99,2.87,2.96,242600
745,2.50891,2.75,2015-01-15,3.04,2.7,2.96,552700
750,3.20228,3.51,2015-01-08,3.7,3.46,3.52,415700
755,3.77705,4.14,2014-12-31,4.36,3.68,3.78,721300
760,3.24789,3.56,2014-12-23,3.62,3.44,3.59,249700
765,2.76436,3.03,2014-12-16,3.15,2.86,2.89,284400
770,2.83491,3.16,2014-12-09,3.24,3.07,3.15,526000
775,2.81697,3.14,2014-12-02,3.41,3.11,3.22,461800
780,3.42702,3.82,2014-11-24,4.08,3.73,4.08,227200
785,3.44496,3.84,2014-11-17,3.95,3.78,3.95,162700
790,3.61541,4.03,2014-11-10,4.41,3.98,4.33,208500
795,3.74998,4.18,2014-11-03,4.36,4.17,4.36,194000
800,4.01015,4.47,2014-10-27,4.7,4.38,4.7,246300
805,4.37797,4.88,2014-10-20,5.0,4.82,4.84,161300
810,4.7099,5.25,2014-10-13,5.37,5.01,5.07,206600
815,5.0239,5.6,2014-10-06,5.64,5.55,5.55,192800
820,5.56217,6.2,2014-09-29,6.23,5.83,5.88,107200
825,5.39172,6.01,2014-09-22,6.23,5.99,6.2,263600
830,5.70571,6.36,2014-09-15,6.43,6.23,6.26,114400
835,5.61635,6.31,2014-09-08,6.58,6.26,6.56,147600
840,6.03469,6.78,2014-08-29,6.82,6.71,6.77,157700
845,5.81217,6.53,2014-08-22,6.57,6.39,6.47,79900
850,5.68756,6.39,2014-08-15,6.47,6.25,6.27,150300
855,5.66976,6.37,2014-08-08,6.42,6.09,6.16,158600
860,5.44724,6.12,2014-08-01,6.24,6.01,6.24,314400
865,5.92788,6.66,2014-07-25,6.75,6.61,6.74,182900
870,5.91008,6.64,2014-07-18,6.68,6.54,6.57,45800
875,6.15039,6.91,2014-07-11,6.94,6.8,6.92,61700
880,6.70224,7.53,2014-07-03,7.57,7.45,7.51,35200
885,6.40852,7.2,2014-06-26,7.25,7.13,7.14,45700
890,6.32841,7.11,2014-06-19,7.21,7.05,7.08,120900
895,6.36401,7.15,2014-06-12,7.24,7.08,7.13,77800
900,6.17066,7.03,2014-06-05,7.08,6.84,6.94,58500
905,5.95122,6.78,2014-05-29,6.83,6.63,6.69,77200
910,5.802,6.61,2014-05-21,6.75,6.35,6.38,81000
915,5.7226,6.62,2014-05-14,6.74,6.58,6.69,70500
920,6.31042,7.3,2014-05-07,7.86,7.16,7.86,280400
925,6.74264,7.8,2014-04-30,8.01,7.69,7.95,74700
930,6.53518,7.56,2014-04-23,8.01,7.5,7.97,164900
935,6.43144,7.44,2014-04-15,7.47,7.38,7.44,133800
940,6.46602,7.48,2014-04-08,7.48,7.28,7.28,89500
945,6.58704,7.62,2014-04-01,7.64,7.44,7.6,106200
950,6.46602,7.48,2014-03-25,7.72,7.43,7.68,102400
955,6.56111,7.59,2014-03-18,7.85,7.25,7.45,610400
960,6.51789,7.54,2014-03-11,7.78,7.53,7.72,105900
965,6.75129,7.81,2014-03-04,7.86,7.54,7.55,124300
970,6.43144,7.44,2014-02-25,7.51,7.23,7.51,64700
975,6.29313,7.28,2014-02-18,7.38,7.25,7.32,95200
980,6.02516,6.97,2014-02-10,7.18,6.96,7.18,128800
985,5.96465,6.9,2014-02-03,7.29,6.84,7.25,317200
990,6.86366,7.94,2014-01-27,8.38,7.86,8.38,190900
995,7.14893,8.27,2014-01-17,8.52,8.25,8.51,78700
1000,6.93282,8.02,2014-01-10,8.1,7.88,7.93,152700
1005,7.17486,8.3,2014-01-03,8.45,8.28,8.36,57700
1010,7.11435,8.23,2013-12-26,8.37,8.18,8.37,56600
1015,7.26995,8.41,2013-12-18,8.7,8.39,8.69,170300
1020,7.45148,8.62,2013-12-11,8.92,8.56,8.88,172400
1025,7.90964,9.15,2013-12-04,9.17,8.8,8.83,168200
1030,7.54657,8.73,2013-11-26,8.8,8.56,8.69,86200
1035,7.49471,8.67,2013-11-19,8.79,8.55,8.55,113800
1040,7.41691,8.58,2013-11-12,9.03,8.43,8.99,423400
1045,8.13439,9.41,2013-11-05,9.66,9.22,9.22,128200
1050,7.88371,9.12,2013-10-29,9.34,9.07,9.31,77200
1055,8.06524,9.33,2013-10-22,9.46,9.27,9.35,64200
1060,7.78862,9.01,2013-10-15,9.08,8.99,9.06,83000
1065,7.64166,8.84,2013-10-08,9.13,8.84,9.05,87000
1070,7.03655,8.14,2013-10-01,8.31,7.9,7.97,219100
1075,6.70806,7.76,2013-09-24,7.92,7.75,7.9,49800
1080,6.80315,7.87,2013-09-17,7.99,7.69,7.7,224900
1085,6.345,7.34,2013-09-10,7.36,7.23,7.23,100700
1090,6.10296,7.06,2013-09-03,7.19,7.01,7.1,159800
1095,6.00787,6.95,2013-08-26,7.13,6.92,7.02,56400
1100,5.63616,6.52,2013-08-19,6.66,6.44,6.6,53500
1105,5.61022,6.49,2013-08-12,6.88,6.4,6.87,196200
1110,6.29313,7.28,2013-08-05,7.35,6.56,6.68,261200
1115,5.44598,6.3,2013-07-29,6.36,6.18,6.34,23600
1120,5.35089,6.19,2013-07-22,6.4,6.15,6.4,106400
1125,5.2558,6.08,2013-07-15,6.12,6.0,6.0,60500
1130,5.14343,5.95,2013-07-08,6.17,5.83,6.17,87700
1135,5.35954,6.2,2013-06-28,6.29,5.99,6.02,109200
1140,5.01376,5.8,2013-06-21,6.24,5.63,6.24,190700
1145,6.12889,7.09,2013-06-14,7.19,7.08,7.18,41700
1150,6.1894,7.16,2013-06-07,7.25,7.12,7.13,47600
1155,6.37093,7.37,2013-05-31,7.63,7.32,7.59,63800
1160,6.54382,7.57,2013-05-23,7.58,7.27,7.4,79600
1165,6.44009,7.45,2013-05-16,7.66,7.39,7.53,89700
1170,7.20944,8.34,2013-05-09,8.56,8.2,8.22,73400
1175,6.8118,7.88,2013-05-02,7.98,7.63,7.74,38600
1180,7.01926,8.12,2013-04-25,8.25,7.74,7.79,96700
1185,6.08567,7.04,2013-04-18,7.15,6.88,6.98,79300
1190,6.92418,8.01,2013-04-11,8.29,7.67,7.68,128200
1195,6.69077,7.74,2013-04-04,7.82,7.7,7.79,46700
1200,7.41691,8.58,2013-03-27,8.61,8.53,8.57,13800
1205,7.69353,8.9,2013-03-20,9.08,8.88,9.04,51000
1210,7.70217,8.91,2013-03-13,8.98,8.87,8.98,38000
1215,7.39097,8.55,2013-03-06,8.65,8.47,8.49,78200
1220,6.85502,7.93,2013-02-27,8.01,7.8,7.8,39200
1225,6.67349,7.72,2013-02-20,8.1,7.67,8.1,157500
1230,7.56386,8.75,2013-02-12,8.78,8.61,8.77,58600
1235,7.51199,8.69,2013-02-05,8.72,8.62,8.69,44300
1240,7.28724,8.43,2013-01-29,8.58,8.39,8.47,73800
1245,7.49471,8.67,2013-01-22,8.83,8.64,8.8,103400
1250,7.4342,8.6,2013-01-14,9.05,8.5,8.98,298200
1255,7.97879,9.23,2013-01-07,9.37,9.14,9.32,110300
1260,8.07388,9.34,2012-12-28,9.46,9.28,9.28,56600
1265,8.43695,9.76,2012-12-20,9.87,9.64,9.69,57600
1270,8.16897,9.45,2012-12-13,9.98,9.37,9.94,148100
1275,8.5061,9.84,2012-12-06,10.15,9.65,10.09,117300
1280,8.96425,10.37,2012-11-29,10.47,10.26,10.33,39300
1285,9.56937,11.07,2012-11-21,11.1,10.99,11.03,25900
1290,9.49157,10.98,2012-11-14,11.45,10.97,11.45,77600
1295,10.2004,11.8,2012-11-07,12.24,11.79,12.07,102000
1300,9.31004,10.77,2012-10-31,10.86,10.5,10.56,46800
1305,9.78548,11.32,2012-10-22,11.48,11.23,11.26,79900
1310,9.62988,11.14,2012-10-15,11.46,11.11,11.31,42300
1315,9.62123,11.13,2012-10-08,11.13,11.01,11.05,7400
1320,9.89785,11.45,2012-10-01,11.47,10.9,10.99,115300
1325,9.56937,11.07,2012-09-24,11.18,11.01,11.14,81900
1330,10.1831,11.78,2012-09-17,11.98,11.51,11.51,157400
1335,10.1399,11.73,2012-09-10,12.14,11.7,11.93,130300
1340,8.84323,10.23,2012-08-31,10.49,10.11,10.34,68700
1345,9.15443,10.59,2012-08-24,10.73,10.46,10.46,66800
1350,8.99019,10.4,2012-08-17,10.42,9.91,9.91,127300
1355,8.22948,9.52,2012-08-10,9.65,9.45,9.65,84100
1360,7.98744,9.24,2012-08-03,9.39,9.03,9.16,109400
1365,8.68764,10.05,2012-07-27,10.32,9.26,9.26,325200
1370,7.61573,8.81,2012-07-20,8.97,8.76,8.81,123000
1375,7.73675,8.95,2012-07-13,8.99,8.55,8.55,161800
1380,7.66759,8.87,2012-07-06,9.04,8.7,8.78,154400
1385,7.28724,8.43,2012-06-28,8.49,7.9,7.91,229700
1390,6.8896,7.97,2012-06-21,9.05,7.89,9.05,233800
1395,8.28999,9.59,2012-06-14,10.07,9.52,9.86,193900
1400,8.4283,9.75,2012-06-07,9.96,9.7,9.89,77000
1405,8.90375,10.3,2012-05-31,10.36,9.64,9.93,124700
1410,8.99883,10.41,2012-05-23,10.48,10.07,10.42,111000
1415,8.91239,10.31,2012-05-16,10.95,10.22,10.87,204200
1420,10.1745,11.77,2012-05-09,11.8,10.87,11.74,242000
1425,12.2405,14.16,2012-05-02,14.4,14.1,14.4,68700
1430,11.6527,13.48,2012-04-25,13.55,13.04,13.13,70500
1435,11.2723,13.04,2012-04-18,13.06,12.71,12.79,96700
1440,11.3242,13.1,2012-04-11,13.15,12.38,12.47,198600
1445,10.9006,12.61,2012-04-03,12.91,12.41,12.41,127500
1450,10.6845,12.36,2012-03-27,12.49,12.21,12.41,106400
1455,10.088,11.67,2012-03-20,11.77,11.6,11.68,46700
1460,10.503,12.15,2012-03-13,12.18,11.57,11.65,218700
1465,9.69903,11.22,2012-03-06,11.26,10.83,11.14,195100
1470,9.72497,11.25,2012-02-28,11.29,11.02,11.19,135700
1475,9.32732,10.79,2012-02-21,10.89,10.69,10.78,128500
1480,9.02477,10.44,2012-02-13,10.49,10.23,10.4,72000
1485,8.80001,10.18,2012-02-06,10.19,9.91,10.07,86000
1490,8.23813,9.53,2012-01-30,9.57,9.18,9.42,115400
1495,8.44559,9.77,2012-01-23,9.97,9.41,9.41,133200
1500,7.47742,8.65,2012-01-13,8.96,8.59,8.9,92300
1505,7.66759,8.87,2012-01-06,8.97,8.72,8.78,164800
1510,6.78586,7.85,2011-12-29,7.89,7.75,7.78,51300
1515,6.83773,7.91,2011-12-21,8.01,7.71,7.86,128500
1520,5.956,6.89,2011-12-14,7.06,6.75,6.92,133800
1525,6.91553,8.0,2011-12-07,8.12,7.8,8.12,98300
1530,7.0452,8.15,2011-11-30,8.48,8.04,8.38,121600
1535,6.61298,7.65,2011-11-22,7.92,7.59,7.92,132800
1540,8.10846,9.38,2011-11-15,9.58,9.35,9.46,84500
1545,8.8173,10.2,2011-11-08,10.28,9.81,10.22,272100
1550,8.39373,9.71,2011-11-01,9.86,9.45,9.75,126500
1555,8.92103,10.32,2011-10-25,10.54,9.82,9.95,193400
1560,7.90964,9.15,2011-10-18,9.29,8.6,8.79,92400
1565,7.70217,8.91,2011-10-11,9.07,8.65,8.67,110200
1570,6.51789,7.54,2011-10-04,7.57,7.06,7.38,159700
1575,7.90099,9.14,2011-09-27,9.5,8.86,8.86,130000
1580,8.46288,9.79,2011-09-20,10.12,9.64,10.1,126600
1585,7.92693,9.17,2011-09-13,9.32,9.07,9.28,76900
1590,7.91828,9.16,2011-09-06,9.19,8.8,8.96,110300
1595,8.32457,9.63,2011-08-29,9.71,9.16,9.25,129500
1600,7.39097,8.55,2011-08-22,8.98,8.52,8.98,123400
1605,8.60983,9.96,2011-08-15,9.97,9.43,9.46,116300
1610,7.14893,8.27,2011-08-08,8.6,7.7,7.99,374700
1615,9.44834,10.93,2011-08-01,11.18,10.83,11.01,73200
1620,10.2696,11.88,2011-07-25,12.01,11.73,11.8,86800
1625,10.1918,11.79,2011-07-18,11.93,11.6,11.91,126300
1630,10.3301,11.95,2011-07-11,12.35,11.83,12.26,164600
1635,9.94972,11.51,2011-07-01,11.55,11.28,11.47,71600
1640,9.41377,10.89,2011-06-24,11.25,10.77,11.25,175400
1645,10.2869,11.9,2011-06-17,12.05,11.74,12.0,152800
1650,11.0821,12.82,2011-06-10,13.34,12.76,13.22,123500
1655,12.2491,14.17,2011-06-03,14.48,14.11,14.22,111000
1660,11.8774,13.74,2011-05-26,13.74,13.4,13.45,102700
1665,11.1426,12.89,2011-05-19,13.22,12.79,12.97,66600
1670,11.6786,13.51,2011-05-12,13.55,13.07,13.3,142100
1675,10.7623,12.45,2011-05-05,12.91,12.3,12.81,270500
1680,12.6295,14.61,2011-04-28,14.63,14.2,14.31,251000
1685,11.8947,13.76,2011-04-20,14.03,13.63,13.83,182400
1690,12.2491,14.17,2011-04-13,14.57,14.04,14.33,122600
1695,13.4766,15.59,2011-04-06,15.82,15.25,15.8,272400
1700,13.1395,15.2,2011-03-30,15.34,15.01,15.02,352300
1705,12.1281,14.03,2011-03-23,14.12,13.64,13.83,267300
1710,11.402,13.19,2011-03-16,13.8,13.07,13.37,286500
1715,12.4912,14.45,2011-03-09,15.13,14.35,15.02,521500
1720,12.422,14.37,2011-03-02,14.42,14.08,14.3,191800
1725,11.8601,13.72,2011-02-23,13.77,13.41,13.76,435700
1730,12.8629,14.88,2011-02-15,15.27,14.65,15.27,511800
1735,12.958,14.99,2011-02-08,15.4,14.92,15.33,1027800
1740,11.5749,13.39,2011-02-01,13.46,12.13,12.13,1188100
1745,12.1368,14.04,2011-01-25,14.19,13.94,14.13,254300
1750,12.8283,14.84,2011-01-18,15.18,14.83,14.89,301900
1755,12.9926,15.03,2011-01-10,15.16,14.93,15.13,433800
1760,13.7792,15.94,2011-01-03,16.23,15.81,15.98,275800
1765,13.615,15.75,2010-12-27,16.5,15.6,16.46,487800
1770,13.0358,15.08,2010-12-17,15.28,14.51,14.58,983000
1775,15.0759,17.44,2010-12-10,17.74,17.23,17.5,479500
1780,16.1996,18.74,2010-12-03,18.77,17.86,17.99,805300
1785,14.3757,16.63,2010-11-26,16.8,16.34,16.34,459600
1790,12.811,14.82,2010-11-18,15.64,14.74,14.93,574900
1795,13.4334,15.54,2010-11-11,15.6,14.9,15.16,544100
1800,11.0821,12.82,2010-11-04,12.85,12.0,12.04,904400
1805,9.02477,10.44,2010-10-28,10.72,10.4,10.4,152500
1810,9.10257,10.53,2010-10-21,10.86,10.44,10.61,244800
1815,9.35326,10.82,2010-10-14,10.95,10.46,10.46,450400
1820,8.12575,9.4,2010-10-07,9.82,9.35,9.82,187400
1825,8.17761,9.46,2010-09-30,9.55,9.16,9.16,195600
1830,7.65031,8.85,2010-09-23,8.95,8.67,8.75,123000
1835,6.66484,7.71,2010-09-16,7.8,7.71,7.71,75000
1840,6.37958,7.38,2010-09-09,7.44,7.29,7.38,121000
1845,6.345,7.34,2010-09-01,7.34,7.16,7.23,92800
1850,6.39687,7.4,2010-08-25,7.4,7.27,7.4,185500
1855,6.71671,7.77,2010-08-18,7.87,7.69,7.77,127200
1860,6.48331,7.5,2010-08-11,7.64,7.4,7.6,166900
1865,6.63891,7.68,2010-08-04,7.75,7.5,7.66,178100
1870,6.37093,7.37,2010-07-28,7.42,7.27,7.39,47800
1875,6.1894,7.16,2010-07-21,7.27,7.08,7.27,63300
1880,6.50924,7.53,2010-07-14,7.65,7.52,7.61,74400
1885,6.44009,7.45,2010-07-07,7.45,7.01,7.01,103500
1890,6.48331,7.5,2010-06-29,7.66,7.24,7.52,184900
1895,6.734,7.79,2010-06-22,7.97,7.69,7.86,245900
1900,6.8896,7.97,2010-06-15,7.99,7.82,7.94,163800
1905,6.54382,7.57,2010-06-08,7.6,7.26,7.39,164600
1910,6.14618,7.11,2010-06-01,7.29,6.87,6.9,312800
1915,5.63616,6.52,2010-05-24,6.91,6.48,6.83,98900
1920,6.29313,7.28,2010-05-17,7.34,7.12,7.29,293900
1925,6.23262,7.21,2010-05-10,7.32,7.07,7.14,249600
1930,6.46602,7.48,2010-05-03,7.57,7.38,7.43,237800
1935,6.28449,7.27,2010-04-26,7.31,7.2,7.22,187600
1940,5.91278,6.84,2010-04-19,6.88,6.43,6.64,502200
1945,5.65345,6.54,2010-04-12,6.63,6.34,6.38,296100
1950,5.44598,6.3,2010-04-05,6.32,6.16,6.27,358800
1955,4.64205,5.37,2010-03-26,5.49,5.33,5.49,231600
1960,3.83812,4.44,2010-03-19,4.58,4.32,4.58,94100
1965,3.77761,4.37,2010-03-12,4.46,4.31,4.33,163400
1970,3.38861,3.92,2010-03-05,3.93,3.85,3.9,62800
1975,3.3281,3.85,2010-02-26,3.93,3.81,3.84,75300
1980,3.49234,4.04,2010-02-19,4.05,3.96,3.98,92800
1985,3.31081,3.83,2010-02-11,3.83,3.72,3.73,48500
1990,3.13792,3.63,2010-02-04,3.93,3.52,3.84,281100
1995,3.13792,3.63,2010-01-28,3.76,3.53,3.53,136300
2000,2.99961,3.47,2010-01-21,3.57,3.46,3.57,35600
2005,3.19843,3.7,2010-01-13,3.75,3.62,3.67,61500
2010,3.15521,3.65,2010-01-06,3.73,3.57,3.58,193900
2015,2.87859,3.33,2009-12-29,3.4,3.26,3.33,102000
2020,2.95639,3.42,2009-12-21,3.53,3.42,3.47,53800
2025,2.8613,3.31,2009-12-14,3.32,3.25,3.32,102200
2030,3.04283,3.52,2009-12-07,3.53,3.45,3.53,31100
2035,3.07741,3.56,2009-11-30,3.78,3.56,3.7,47300
2040,3.06877,3.55,2009-11-20,3.6,3.4,3.4,166500
2045,3.20708,3.71,2009-11-13,3.73,3.42,3.49,132700
2050,3.1725,3.67,2009-11-06,3.75,3.58,3.75,187200
2055,3.28488,3.8,2009-10-30,4.15,3.74,4.0,157800
2060,3.82947,4.43,2009-10-23,4.62,4.42,4.51,79600
2065,3.81219,4.41,2009-10-16,4.44,4.23,4.44,189800
2070,3.46641,4.01,2009-10-09,4.01,3.89,3.9,149600
2075,3.14657,3.64,2009-10-02,3.66,3.35,3.44,138400
2080,2.96503,3.43,2009-09-25,3.51,3.41,3.41,51100
2085,3.22437,3.73,2009-09-18,3.77,3.5,3.64,296800
2090,2.90452,3.36,2009-09-11,3.5,3.3,3.44,120100
2095,2.67977,3.1,2009-09-03,3.21,3.06,3.1,79900
2100,2.72299,3.15,2009-08-27,3.15,3.0,3.15,133100
2105,2.71435,3.14,2009-08-20,3.14,3.03,3.1,73200
2110,2.75757,3.19,2009-08-13,3.22,3.11,3.14,183200
2115,2.73163,3.16,2009-08-06,3.21,2.92,3.12,341800
2120,2.68841,3.11,2009-07-30,3.15,2.99,2.99,129300
2125,2.59332,3.0,2009-07-23,3.04,2.94,2.97,186100
2130,2.28213,2.64,2009-07-16,2.64,2.47,2.53,162300
2135,1.98822,2.3,2009-07-09,2.42,2.21,2.26,213200
2140,2.35128,2.72,2009-07-01,2.78,2.62,2.64,90600
2145,2.37721,2.75,2009-06-24,2.8,2.68,2.71,159700
2150,2.3167,2.68,2009-06-17,2.75,2.6,2.71,206200
2155,2.48959,2.88,2009-06-10,2.9,2.8,2.8,360900
2160,2.35992,2.73,2009-06-03,2.9,2.68,2.9,112500
2165,2.21297,2.56,2009-05-27,2.63,2.54,2.6,143000
2170,2.30806,2.67,2009-05-19,2.73,2.6,2.62,83000
2175,2.33399,2.7,2009-05-12,2.8,2.68,2.8,226400
2180,2.38586,2.76,2009-05-05,2.77,2.65,2.74,95100
2185,2.15246,2.49,2009-04-28,2.53,2.4,2.4,110400
2190,2.13517,2.47,2009-04-21,2.47,2.34,2.35,89700
2195,2.09195,2.42,2009-04-14,2.61,2.4,2.57,183200
2200,2.11788,2.45,2009-04-06,2.56,2.36,2.55,303000
2205,2.42908,2.81,2009-03-30,2.88,2.6,2.88,265000
2210,2.4723,2.86,2009-03-23,2.86,2.73,2.81,187900
2215,2.26484,2.62,2009-03-16,2.68,2.52,2.68,108200
2220,2.3167,2.68,2009-03-09,2.71,2.55,2.55,136300
2225,2.05737,2.38,2009-03-02,2.71,2.38,2.68,152200
2230,2.04008,2.36,2009-02-23,2.54,2.28,2.44,163100
2235,2.36857,2.74,2009-02-13,2.82,2.74,2.76,36000
2240,2.43772,2.82,2009-02-06,2.82,2.7,2.73,64400
2245,2.56739,2.97,2009-01-30,3.12,2.88,3.0,99000
2250,2.18704,2.53,2009-01-23,2.57,2.34,2.38,144100
2255,2.0055,2.32,2009-01-15,2.33,2.2,2.28,99500
2260,2.14381,2.48,2009-01-08,2.6,2.39,2.46,100800
2265,2.13517,2.47,2008-12-31,2.54,2.36,2.37,142900
2270,1.97957,2.29,2008-12-23,2.57,2.29,2.46,212200
2275,2.16975,2.51,2008-12-16,2.56,2.25,2.25,348600
2280,1.73753,2.01,2008-12-09,2.09,2.0,2.06,63000
2285,1.79804,2.08,2008-12-02,2.15,1.99,2.1,125700
2290,1.59922,1.85,2008-11-24,1.88,1.71,1.71,152400
2295,1.74617,2.02,2008-11-17,2.28,1.9,2.16,168200
2300,2.10059,2.43,2008-11-10,2.8,2.42,2.59,119700
2305,2.0833,2.41,2008-11-03,2.41,2.2,2.3,264500
2310,1.43497,1.66,2008-10-27,1.77,1.66,1.71,81300
2315,1.76346,2.04,2008-10-20,2.05,1.82,1.82,183500
2320,1.46955,1.7,2008-10-13,1.99,1.62,1.99,744100
2325,2.1611,2.5,2008-10-06,2.75,2.0,2.75,433200
2330,2.36857,2.74,2008-09-29,2.99,2.7,2.97,166100
2335,2.74028,3.17,2008-09-22,3.36,3.16,3.36,202400
2340,2.64519,3.06,2008-09-15,3.13,2.88,3.0,136900
2345,3.19843,3.7,2008-09-08,3.8,3.59,3.59,147400
2350,3.28488,3.8,2008-08-29,3.86,3.79,3.86,73500
2355,3.49234,4.04,2008-08-22,4.12,3.97,4.12,84500
2360,3.36268,3.89,2008-08-15,3.98,3.84,3.98,118300
2365,3.25894,3.77,2008-08-08,3.91,3.7,3.85,261700
2370,3.53557,4.09,2008-08-01,4.3,4.08,4.18,84100
2375,3.69116,4.27,2008-07-25,4.31,3.92,3.92,195400
2380,3.82947,4.43,2008-07-18,4.45,4.33,4.33,190100
2385,3.91592,4.53,2008-07-11,4.6,4.45,4.52,146400
2390,4.19254,4.85,2008-07-03,5.0,4.82,5.0,131900
2395,4.51238,5.22,2008-06-26,5.34,5.18,5.28,88700
2400,4.59883,5.32,2008-06-19,5.39,5.29,5.35,242700
2405,4.44323,5.14,2008-06-12,5.2,5.08,5.14,150800
2410,4.4173,5.11,2008-06-05,5.14,4.95,4.98,82500
2415,4.36543,5.05,2008-05-29,5.18,5.03,5.18,181100
2420,4.50374,5.21,2008-05-21,5.45,5.16,5.17,434900
2425,4.19254,4.85,2008-05-14,4.89,4.83,4.86,142700
2430,4.15796,4.81,2008-05-07,4.91,4.77,4.81,196900
2435,3.94185,4.56,2008-04-30,4.66,4.55,4.62,182100
2440,4.16661,4.82,2008-04-23,5.01,4.82,5.01,144700
2445,4.2617,4.93,2008-04-16,5.03,4.68,4.68,221900
2450,4.01965,4.65,2008-04-09,4.74,4.59,4.64,200000
2455,4.14067,4.79,2008-04-02,4.84,4.74,4.83,121100
2460,4.17525,4.83,2008-03-26,4.83,4.71,4.71,114100
2465,4.01965,4.65,2008-03-18,4.75,4.58,4.75,143400
2470,4.34814,5.03,2008-03-11,5.28,4.92,5.0,294200
2475,4.59018,5.31,2008-03-04,5.51,5.16,5.48,311500
2480,4.71985,5.46,2008-02-26,5.53,5.34,5.35,169900
2485,4.58154,5.3,2008-02-19,5.45,5.27,5.45,169700
2490,4.36543,5.05,2008-02-11,5.05,4.81,4.85,99600
2495,4.48645,5.19,2008-02-04,5.19,4.82,4.82,197700
2500,4.08881,4.73,2008-01-28,4.79,4.5,4.51,189900
2505,4.19254,4.85,2008-01-18,5.09,4.8,4.8,173200
2510,4.48645,5.19,2008-01-11,5.19,5.03,5.13,170900
2515,4.35678,5.04,2008-01-04,5.35,5.04,5.33,147800
2520,4.42594,5.12,2007-12-27,5.25,5.11,5.25,89900
2525,4.39136,5.08,2007-12-19,5.25,5.02,5.25,273500
2530,4.65069,5.38,2007-12-12,5.5,5.31,5.5,94800
2535,4.42594,5.12,2007-12-05,5.2,5.04,5.1,162100
2540,4.54696,5.26,2007-11-28,5.27,5.13,5.21,169700
2545,4.63341,5.36,2007-11-20,5.37,5.19,5.19,132500
2550,4.48645,5.19,2007-11-13,5.25,5.08,5.08,292200
2555,4.92731,5.7,2007-11-06,5.75,5.46,5.55,479800
2560,4.81494,5.57,2007-10-30,5.79,5.52,5.75,447700
2565,4.70256,5.44,2007-10-23,5.5,5.31,5.31,181800
2570,4.57289,5.29,2007-10-16,5.3,5.15,5.24,295200
2575,4.40865,5.1,2007-10-09,5.1,4.98,4.99,111800
2580,4.32221,5.0,2007-10-02,5.11,4.94,5.03,183100
2585,3.97643,4.6,2007-09-25,4.7,4.55,4.65,93900
2590,3.99372,4.62,2007-09-18,4.62,4.48,4.49,196100
2595,3.76032,4.35,2007-09-11,4.4,4.23,4.4,79600
2600,3.54421,4.1,2007-09-04,4.12,3.97,4.0,115000
2605,3.55285,4.11,2007-08-27,4.17,4.05,4.17,117000
2610,3.26759,3.78,2007-08-20,3.95,3.74,3.9,153200
2615,3.19843,3.7,2007-08-13,3.88,3.63,3.8,458400
2620,3.44912,3.99,2007-08-06,4.3,3.93,4.3,397300
2625,4.24441,4.91,2007-07-30,4.91,4.77,4.77,282900
2630,4.58154,5.3,2007-07-23,5.41,5.26,5.31,345400
2635,4.55561,5.27,2007-07-16,5.36,5.08,5.29,580900
2640,4.20119,4.86,2007-07-09,5.0,4.81,4.99,293200
2645,3.85541,4.46,2007-06-29,4.6,4.35,4.4,674700
2650,3.74303,4.33,2007-06-22,4.4,4.3,4.39,90700
2655,3.37997,3.91,2007-06-15,3.97,3.89,3.93,124000
2660,3.44048,3.98,2007-06-08,4.01,3.97,3.99,159200
2665,3.46641,4.01,2007-06-01,4.05,3.96,3.99,228400
2670,3.42319,3.96,2007-05-24,3.99,3.93,3.99,157600
2675,3.36268,3.89,2007-05-17,3.92,3.79,3.81,217800
2680,3.42319,3.96,2007-05-10,4.04,3.96,4.0,151200
2685,3.53557,4.09,2007-05-03,4.22,4.09,4.22,134600
2690,3.6393,4.21,2007-04-26,4.3,4.14,4.3,131000
2695,3.39725,3.93,2007-04-19,3.98,3.9,3.9,124100
2700,3.36268,3.89,2007-04-12,3.95,3.83,3.92,142200
2705,3.43183,3.97,2007-04-04,4.01,3.9,3.9,91600
2710,3.36268,3.89,2007-03-28,3.99,3.89,3.93,113300
2715,3.33674,3.86,2007-03-21,3.89,3.77,3.86,218700
2720,3.60472,4.17,2007-03-14,4.28,4.13,4.28,236000
2725,3.83812,4.44,2007-03-07,4.54,4.32,4.35,164000
2730,3.80354,4.4,2007-02-28,4.46,4.32,4.4,133400
2735,3.86405,4.47,2007-02-21,4.48,4.4,4.41,345300
2740,4.00236,4.63,2007-02-13,4.66,4.45,4.5,284400
2745,4.13203,4.78,2007-02-06,4.78,4.66,4.7,117400
2750,4.1839,4.84,2007-01-30,4.84,4.64,4.83,261500
2755,4.30492,4.98,2007-01-23,5.0,4.8,4.81,101200
2760,4.09745,4.74,2007-01-16,4.93,4.72,4.72,149000
2765,4.20119,4.86,2007-01-08,4.94,4.6,4.62,183700
2770,4.33085,5.01,2006-12-28,5.02,4.85,4.9,228200
2775,4.37407,5.06,2006-12-20,5.23,5.04,5.23,163500
2780,4.59883,5.32,2006-12-13,5.35,5.23,5.34,162600
2785,4.37407,5.06,2006-12-06,5.12,5.02,5.07,110700
2790,4.44323,5.14,2006-11-29,5.14,5.0,5.03,150400
2795,4.40001,5.09,2006-11-21,5.2,5.07,5.15,194500
2800,4.15796,4.81,2006-11-14,4.85,4.72,4.74,159700
2805,3.97643,4.6,2006-11-07,4.61,4.55,4.55,125000
2810,3.97643,4.6,2006-10-31,4.72,4.54,4.69,268200
2815,4.04558,4.68,2006-10-24,4.78,4.63,4.72,67300
2820,4.16661,4.82,2006-10-17,4.9,4.75,4.89,99600
2825,3.81219,4.41,2006-10-10,4.49,4.36,4.49,94900
2830,4.01101,4.64,2006-10-03,4.8,4.56,4.8,114600
2835,3.94185,4.56,2006-09-26,4.6,4.51,4.55,90000
2840,4.24441,4.91,2006-09-19,4.96,4.75,4.75,254900
2845,4.01965,4.65,2006-09-12,4.7,4.62,4.68,176600
2850,4.39136,5.08,2006-09-05,5.2,5.0,5.17,202000
2855,4.13203,4.78,2006-08-28,4.85,4.78,4.84,44400
2860,4.14067,4.79,2006-08-21,4.86,4.78,4.83,102800
2865,4.16661,4.82,2006-08-14,4.86,4.72,4.85,155300
2870,4.32221,5.0,2006-08-07,5.05,4.84,4.88,163800
2875,4.27898,4.95,2006-07-31,4.97,4.8,4.8,126300
2880,3.91592,4.53,2006-07-24,4.6,4.5,4.5,113500
2885,4.17525,4.83,2006-07-17,5.0,4.81,5.0,106500
2890,4.20983,4.87,2006-07-10,5.04,4.87,5.02,95900
2895,4.19254,4.85,2006-06-30,4.9,4.65,4.65,145300
2900,4.09745,4.74,2006-06-23,4.75,4.45,4.52,135100
2905,4.0283,4.66,2006-06-16,4.8,4.55,4.8,104100
2910,4.25305,4.92,2006-06-09,5.04,4.88,4.93,68500
2915,4.57289,5.29,2006-06-02,5.39,5.17,5.21,148200
2920,4.42594,5.12,2006-05-25,5.2,5.0,5.0,128200
2925,4.35678,5.04,2006-05-18,5.16,4.98,5.16,248100
2930,4.88409,5.65,2006-05-11,5.89,5.6,5.89,205900
2935,5.05698,5.85,2006-05-04,5.9,5.82,5.85,159600
2940,5.11749,5.92,2006-04-27,6.01,5.83,5.97,209000
2945,5.16071,5.97,2006-04-20,6.05,5.93,6.05,124700
2950,5.1002,5.9,2006-04-12,6.0,5.83,5.83,118200
2955,4.60747,5.33,2006-04-05,5.37,5.25,5.25,204400
2960,4.66798,5.4,2006-03-29,5.49,5.36,5.45,189500
2965,4.67663,5.41,2006-03-22,5.55,5.29,5.35,177000
2970,4.84087,5.6,2006-03-15,5.63,5.53,5.56,194100
2975,4.99647,5.78,2006-03-08,5.88,5.65,5.72,233100
2980,4.84952,5.61,2006-03-01,5.74,5.6,5.69,199500
2985,4.91867,5.69,2006-02-22,5.8,5.65,5.8,170200
2990,4.71985,5.46,2006-02-14,5.57,5.29,5.36,285700
2995,5.26445,6.09,2006-02-07,6.34,5.9,6.34,569700
3000,5.29038,6.12,2006-01-31,6.12,5.85,5.9,667100
3005,4.76307,5.51,2006-01-24,5.6,5.4,5.45,317700
3010,4.49509,5.2,2006-01-17,5.23,5.08,5.18,290600
3015,4.36543,5.05,2006-01-09,5.15,5.0,5.15,312300
3020,4.42594,5.12,2005-12-30,5.32,4.98,5.28,824700
3025,4.65069,5.38,2005-12-22,5.69,5.3,5.39,169800
3030,4.90138,5.67,2005-12-15,5.83,5.65,5.83,171700
3035,4.78036,5.53,2005-12-08,5.79,5.45,5.52,305200
3040,4.53832,5.25,2005-12-01,5.3,5.18,5.2,257100
3045,4.66798,5.4,2005-11-23,5.55,5.3,5.55,174000
3050,4.51238,5.22,2005-11-16,5.24,5.0,5.02,263700
3055,4.51238,5.22,2005-11-09,5.34,5.11,5.24,148000
3060,4.77172,5.52,2005-11-02,5.57,5.4,5.43,590700
3065,4.27034,4.94,2005-10-26,5.15,4.86,5.09,368300
3070,4.27898,4.95,2005-10-19,5.11,4.85,5.08,445300
3075,4.789,5.54,2005-10-12,5.99,5.52,5.99,522700
3080,5.22123,6.04,2005-10-05,6.1,5.74,6.0,939100
3085,5.4892,6.35,2005-09-28,6.41,6.26,6.41,251800
3090,5.80905,6.72,2005-09-21,6.95,6.41,6.75,752000
3095,5.23851,6.06,2005-09-14,6.18,6.03,6.09,294200
3100,5.30767,6.14,2005-09-07,6.26,6.08,6.16,256600
3105,5.40276,6.25,2005-08-30,6.41,6.2,6.32,249300
3110,5.42005,6.27,2005-08-23,6.53,6.16,6.47,248900
3115,5.31631,6.15,2005-08-16,6.36,6.15,6.35,253100
3120,5.49785,6.36,2005-08-09,6.52,6.35,6.45,235100
3125,5.59293,6.47,2005-08-02,6.81,6.28,6.8,869500
3130,5.27309,6.1,2005-07-26,6.1,5.95,6.05,271400
3135,5.42869,6.28,2005-07-19,6.39,6.24,6.39,318700
3140,6.01651,6.96,2005-07-12,7.08,6.88,6.88,590300
3145,6.01651,6.96,2005-07-05,7.01,6.7,6.75,455500
3150,6.24991,7.23,2005-06-27,7.35,6.91,6.91,818900
3155,6.01651,6.96,2005-06-20,7.05,6.78,6.84,613500
3160,5.58429,6.46,2005-06-13,6.5,6.35,6.41,487900
3165,5.20394,6.02,2005-06-06,6.04,5.75,5.8,506900
3170,4.57289,5.29,2005-05-27,5.37,5.1,5.15,371300
3175,3.86405,4.47,2005-05-20,4.6,4.35,4.49,292200
3180,4.25305,4.92,2005-05-13,5.1,4.9,5.0,225300
3185,4.45187,5.15,2005-05-06,5.19,5.1,5.12,225900
3190,4.47781,5.18,2005-04-29,5.6,5.0,5.45,641500
3195,4.9446,5.72,2005-04-22,5.89,5.6,5.6,791900
3200,4.66798,5.4,2005-04-15,5.5,5.25,5.45,470300
3205,5.35954,6.2,2005-04-08,6.38,6.15,6.35,292400
3210,5.7226,6.62,2005-04-01,6.72,6.46,6.66,430900
3215,5.40276,6.25,2005-03-24,6.47,6.11,6.25,324700
3220,5.60158,6.48,2005-03-17,6.48,6.11,6.11,1002200
3225,5.43734,6.29,2005-03-10,7.28,6.1,7.28,1631900
3230,6.44009,7.45,2005-03-03,7.77,7.35,7.7,641800
3235,7.33046,8.48,2005-02-24,8.71,8.25,8.54,509200
3240,5.91278,6.84,2005-02-16,6.85,6.72,6.77,296500
3245,5.49785,6.36,2005-02-09,6.57,6.18,6.4,501800
3250,5.78311,6.69,2005-02-02,6.74,6.25,6.45,488900
3255,5.1002,5.9,2005-01-26,5.94,5.85,5.94,262500
3260,4.97054,5.75,2005-01-19,5.94,5.6,5.85,361100
3265,4.05423,4.69,2005-01-11,4.77,4.61,4.72,160300
3270,4.1061,4.75,2005-01-04,4.98,4.65,4.98,262800
3275,4.2617,4.93,2004-12-28,4.97,4.87,4.95,115900
3280,4.39136,5.08,2004-12-20,5.15,5.04,5.05,158900
3285,4.11474,4.76,2004-12-13,4.86,4.72,4.84,238200
3290,4.31356,4.99,2004-12-06,5.13,4.93,4.99,308700
3295,4.84087,5.6,2004-11-29,5.94,4.99,5.0,2287000
3300,3.31081,3.83,2004-11-19,3.86,3.75,3.82,180200
3305,3.26759,3.78,2004-11-12,3.78,3.7,3.71,187500
3310,3.37997,3.91,2004-11-05,4.0,3.83,3.85,186900
3315,3.37997,3.91,2004-10-29,3.91,3.76,3.87,296700
3320,3.82083,4.42,2004-10-22,4.47,4.24,4.25,577200
3325,3.38861,3.92,2004-10-15,4.0,3.85,3.98,224400
3330,3.26759,3.78,2004-10-08,4.04,3.5,3.98,680000
3335,2.80943,3.25,2004-10-01,3.33,3.23,3.28,240300
3340,2.51552,2.91,2004-09-24,2.94,2.75,2.75,590800
3345,2.13517,2.47,2004-09-17,2.54,2.35,2.35,317800
3350,1.89313,2.19,2004-09-10,2.29,2.11,2.29,547500
3355,2.04008,2.36,2004-09-02,2.37,2.3,2.37,103400
3360,2.06601,2.39,2004-08-26,2.39,2.34,2.36,33600
3365,2.0833,2.41,2004-08-19,2.41,2.33,2.33,108000
3370,2.07466,2.4,2004-08-12,2.42,2.36,2.36,29100
3375,2.10059,2.43,2004-08-05,2.48,2.35,2.44,138000
3380,2.0833,2.41,2004-07-29,2.53,2.31,2.48,350000
3385,2.23026,2.58,2004-07-22,2.6,2.52,2.58,150100
3390,2.27348,2.63,2004-07-15,2.65,2.57,2.64,267100
3395,2.41179,2.79,2004-07-08,2.86,2.79,2.83,152500
3400,2.35128,2.72,2004-06-30,2.73,2.64,2.64,105900
3405,2.34264,2.71,2004-06-23,2.73,2.46,2.51,561300
3410,2.12653,2.46,2004-06-16,2.46,2.39,2.39,113500
3415,1.96228,2.27,2004-06-08,2.29,2.24,2.24,88300
3420,2.11788,2.45,2004-06-01,2.48,2.35,2.45,101800
3425,2.01415,2.33,2004-05-24,2.38,2.28,2.29,89100
3430,1.89313,2.19,2004-05-17,2.28,2.15,2.22,119700
3435,1.81533,2.1,2004-05-10,2.25,1.98,2.25,396700
3440,1.99686,2.31,2004-05-03,2.37,2.3,2.36,184700
3445,2.1611,2.5,2004-04-26,2.59,2.5,2.57,207500
3450,2.3945,2.77,2004-04-19,2.9,2.7,2.74,250900
3455,2.51552,2.91,2004-04-12,2.92,2.83,2.89,241200
3460,2.33399,2.7,2004-04-02,2.8,2.67,2.8,324700
3465,2.23026,2.58,2004-03-26,2.6,2.45,2.45,348300
3470,2.14381,2.48,2004-03-19,2.51,2.46,2.49,68400
3475,2.10059,2.43,2004-03-12,2.54,2.4,2.41,146400
3480,2.43772,2.82,2004-03-05,2.86,2.72,2.78,218300
3485,2.07466,2.4,2004-02-27,2.43,2.37,2.4,172600
3490,2.05737,2.38,2004-02-20,2.39,2.29,2.32,141800
3495,2.04008,2.36,2004-02-12,2.39,2.18,2.31,424000
3500,1.7721,2.05,2004-02-05,2.25,1.99,2.18,975100
3505,2.03144,2.35,2004-01-29,2.64,2.15,2.53,1189300
3510,2.56739,2.97,2004-01-22,3.0,2.86,2.95,294100
3515,2.61061,3.02,2004-01-14,3.04,2.85,2.86,663200
3520,2.28213,2.64,2004-01-07,2.65,2.6,2.63,271500
3525,2.19568,2.54,2003-12-30,2.66,2.53,2.57,268600
3530,2.2389,2.59,2003-12-22,2.66,2.55,2.61,544900
3535,1.91906,2.22,2003-12-15,2.25,2.08,2.17,635400
3540,1.67702,1.94,2003-12-08,1.95,1.71,1.76,432900
3545,1.47819,1.71,2003-12-01,1.75,1.63,1.75,198200
3550,1.46955,1.7,2003-11-21,1.72,1.69,1.7,96200
3555,1.29666,1.5,2003-11-14,1.5,1.38,1.42,218400
3560,1.48684,1.72,2003-11-07,1.83,1.65,1.79,707600
3565,1.04597,1.21,2003-10-31,1.21,1.16,1.17,415900
3570,0.976819,1.13,2003-10-24,1.15,1.13,1.14,106000
3575,1.0114,1.17,2003-10-17,1.22,1.17,1.22,122500
3580,0.968174,1.12,2003-10-10,1.14,1.03,1.03,155500
3585,0.864441,1.0,2003-10-03,1.04,1.0,1.04,47200
3590,0.855797,0.99,2003-09-26,1.01,0.93,0.94,79900
3595,0.821219,0.95,2003-09-19,0.96,0.92,0.92,85800
3600,0.864441,1.0,2003-09-12,1.03,0.98,1.01,119000
3605,0.821219,0.95,2003-09-05,0.97,0.91,0.94,223000
3610,0.795286,0.92,2003-08-28,0.92,0.81,0.84,271300
3615,0.605109,0.7,2003-08-21,0.72,0.68,0.69,387600
3620,0.648331,0.75,2003-08-14,0.76,0.7,0.7,325000
3625,0.734775,0.85,2003-08-07,0.89,0.78,0.84,1114800
3630,0.449509,0.52,2003-07-31,0.55,0.51,0.55,119100
3635,0.432221,0.5,2003-07-24,0.52,0.5,0.51,63600
3640,0.449509,0.52,2003-07-17,0.52,0.5,0.51,60100
3645,0.440865,0.51,2003-07-10,0.52,0.5,0.5,148600
3650,0.432221,0.5,2003-07-02,0.5,0.48,0.48,67800
3655,0.432221,0.5,2003-06-25,0.5,0.48,0.5,24700
3660,0.432221,0.5,2003-06-18,0.53,0.49,0.51,48800
3665,0.423576,0.49,2003-06-11,0.53,0.49,0.53,45700
3670,0.458154,0.53,2003-06-04,0.53,0.51,0.53,112300
3675,0.432221,0.5,2003-05-28,0.52,0.49,0.5,77100
3680,0.449509,0.52,2003-05-20,0.52,0.5,0.52,75300
3685,0.406287,0.47,2003-05-13,0.5,0.47,0.47,18700
3690,0.397643,0.46,2003-05-06,0.49,0.45,0.49,9900
3695,0.423576,0.49,2003-04-29,0.49,0.47,0.47,19400
3700,0.414932,0.48,2003-04-22,0.49,0.48,0.49,15000
3705,0.388999,0.45,2003-04-14,0.47,0.45,0.46,21800
3710,0.406287,0.47,2003-04-07,0.49,0.46,0.46,10800
3715,0.388999,0.45,2003-03-31,0.5,0.45,0.45,7500
3720,0.388999,0.45,2003-03-24,0.45,0.42,0.44,90700
3725,0.397643,0.46,2003-03-17,0.48,0.45,0.48,93600
3730,0.406287,0.47,2003-03-10,0.49,0.45,0.48,117100
3735,0.363065,0.42,2003-03-03,0.46,0.42,0.42,12400
3740,0.388999,0.45,2003-02-24,0.47,0.41,0.45,25300
3745,0.328488,0.38,2003-02-14,0.4,0.38,0.4,24700
3750,0.337132,0.39,2003-02-07,0.44,0.39,0.43,64700
3755,0.345777,0.4,2003-01-31,0.4,0.39,0.39,27000
3760,0.388999,0.45,2003-01-24,0.46,0.44,0.46,191500
3765,0.37171,0.43,2003-01-16,0.44,0.42,0.44,37400
3770,0.354421,0.41,2003-01-09,0.42,0.38,0.38,37900
3775,0.345777,0.4,2003-01-02,0.4,0.38,0.4,16800
3780,0.345777,0.4,2002-12-24,0.44,0.4,0.4,46400
3785,0.354421,0.41,2002-12-17,0.42,0.39,0.42,29800
3790,0.423576,0.49,2002-12-10,0.49,0.38,0.38,132000
3795,0.267977,0.31,2002-12-03,0.31,0.26,0.28,94400
3800,0.250688,0.29,2002-11-25,0.31,0.28,0.29,112000
3805,0.285266,0.33,2002-11-18,0.33,0.29,0.29,7300
3810,0.267977,0.31,2002-11-11,0.31,0.3,0.3,17000
3815,0.259332,0.3,2002-11-04,0.3,0.3,0.3,400
3820,0.285266,0.33,2002-10-28,0.34,0.32,0.34,46400
3825,0.302554,0.35,2002-10-21,0.37,0.33,0.37,45600
3830,0.267977,0.31,2002-10-14,0.35,0.3,0.35,4700
3835,0.311199,0.36,2002-10-07,0.36,0.34,0.34,75500
3840,0.285266,0.33,2002-09-30,0.35,0.33,0.34,58000
3845,0.276621,0.32,2002-09-23,0.32,0.31,0.32,15300
3850,0.224755,0.26,2002-09-16,0.26,0.26,0.26,6200
3855,0.276621,0.32,2002-09-09,0.32,0.31,0.31,21000
3860,0.267977,0.31,2002-08-30,0.31,0.29,0.3,16000
3865,0.250688,0.29,2002-08-23,0.32,0.29,0.32,9000
3870,0.29391,0.34,2002-08-16,0.34,0.29,0.34,20400
3875,0.250688,0.29,2002-08-09,0.29,0.29,0.29,2500
3880,0.267977,0.31,2002-08-02,0.31,0.3,0.3,56100
3885,0.259332,0.3,2002-07-26,0.3,0.27,0.27,90500
3890,0.302554,0.35,2002-07-19,0.35,0.31,0.31,33700
3895,0.259332,0.3,2002-07-12,0.32,0.3,0.3,13800
3900,0.285266,0.33,2002-07-05,0.33,0.33,0.33,0
3905,0.259332,0.3,2002-06-27,0.35,0.3,0.3,5800
3910,0.319843,0.37,2002-06-20,0.37,0.37,0.37,0
3915,0.302554,0.35,2002-06-13,0.35,0.33,0.34,24500
3920,0.311199,0.36,2002-06-06,0.36,0.36,0.36,5500
3925,0.302554,0.35,2002-05-30,0.38,0.35,0.38,44100
3930,0.311199,0.36,2002-05-22,0.39,0.36,0.39,45900
3935,0.345777,0.4,2002-05-15,0.4,0.36,0.38,55900
3940,0.267977,0.31,2002-05-08,0.34,0.29,0.3,30300
3945,0.276621,0.32,2002-05-01,0.32,0.3,0.3,10700
3950,0.302554,0.35,2002-04-24,0.36,0.35,0.36,17000
3955,0.276621,0.32,2002-04-17,0.32,0.32,0.32,21200
3960,0.259332,0.3,2002-04-10,0.33,0.29,0.29,21000
3965,0.302554,0.35,2002-04-03,0.35,0.33,0.35,53100
3970,0.319843,0.37,2002-03-26,0.4,0.37,0.4,26600
3975,0.29391,0.34,2002-03-19,0.34,0.31,0.34,64600
3980,0.276621,0.32,2002-03-12,0.34,0.27,0.3,75300
3985,0.224755,0.26,2002-03-05,0.28,0.24,0.27,18000
3990,0.242044,0.28,2002-02-26,0.28,0.26,0.27,37000
3995,0.250688,0.29,2002-02-19,0.29,0.29,0.29,1000
4000,0.259332,0.3,2002-02-11,0.32,0.27,0.27,19300
4005,0.285266,0.33,2002-02-04,0.33,0.33,0.33,0
4010,0.311199,0.36,2002-01-28,0.36,0.36,0.36,300
4015,0.388999,0.45,2002-01-18,0.45,0.38,0.38,7000
4020,0.311199,0.36,2002-01-11,0.37,0.35,0.35,146700
4025,0.432221,0.5,2002-01-04,0.52,0.48,0.48,94900
4030,0.302554,0.35,2001-12-27,0.35,0.29,0.34,122300
4035,0.250688,0.29,2001-12-19,0.3,0.29,0.29,55800
4040,0.267977,0.31,2001-12-12,0.33,0.31,0.33,48900
4045,0.224755,0.26,2001-12-05,0.27,0.24,0.25,226200
4050,0.207466,0.24,2001-11-28,0.28,0.24,0.28,50300
4055,0.207466,0.24,2001-11-20,0.26,0.23,0.26,67700
4060,0.233399,0.27,2001-11-13,0.27,0.24,0.25,72900
4065,0.224755,0.26,2001-11-06,0.29,0.25,0.29,1600
4070,0.172888,0.2,2001-10-30,0.2,0.2,0.2,0
4075,0.155599,0.18,2001-10-23,0.19,0.18,0.18,20300
4080,0.164244,0.19,2001-10-16,0.21,0.19,0.21,67200
4085,0.164244,0.19,2001-10-09,0.21,0.19,0.19,23000
4090,0.181533,0.21,2001-10-02,0.21,0.21,0.21,0
4095,0.164244,0.19,2001-09-25,0.22,0.19,0.22,18500
4100,0.207466,0.24,2001-09-18,0.25,0.22,0.22,134300
4105,0.250688,0.29,2001-09-05,0.29,0.29,0.29,1000
4110,0.29391,0.34,2001-08-28,0.34,0.34,0.34,0
4115,0.224755,0.26,2001-08-21,0.3,0.25,0.26,72400
4120,0.242044,0.28,2001-08-14,0.3,0.28,0.28,21700
4125,0.242044,0.28,2001-08-07,0.28,0.28,0.28,0
4130,0.233399,0.27,2001-07-31,0.27,0.27,0.27,0
4135,0.233399,0.27,2001-07-24,0.29,0.27,0.27,41500
4140,0.259332,0.3,2001-07-17,0.3,0.3,0.3,20000
4145,0.233399,0.27,2001-07-10,0.3,0.27,0.3,25000
4150,0.276621,0.32,2001-07-02,0.32,0.31,0.31,36400
4155,0.276621,0.32,2001-06-25,0.33,0.32,0.32,34200
4160,0.311199,0.36,2001-06-18,0.36,0.33,0.36,117000
4165,0.319843,0.37,2001-06-11,0.37,0.34,0.37,44200
4170,0.311199,0.36,2001-06-04,0.36,0.34,0.35,25000
4175,0.345777,0.4,2001-05-25,0.48,0.38,0.48,134800
4180,0.328488,0.38,2001-05-18,0.38,0.34,0.34,12800
4185,0.29391,0.34,2001-05-11,0.39,0.34,0.39,13000
4190,0.302554,0.35,2001-05-04,0.39,0.35,0.37,30500
4195,0.328488,0.38,2001-04-27,0.39,0.36,0.38,145700
4200,0.319843,0.37,2001-04-20,0.39,0.37,0.38,6000
4205,0.302554,0.35,2001-04-12,0.35,0.33,0.33,20000
4210,0.243124,0.28125,2001-04-05,0.28125,0.25,0.28125,122700
4215,0.243124,0.28125,2001-03-29,0.296875,0.28125,0.296875,58300
4220,0.243124,0.28125,2001-03-22,0.28125,0.28125,0.28125,33400
4225,0.297152,0.34375,2001-03-15,0.390625,0.34375,0.390625,88700
4230,0.324166,0.375,2001-03-08,0.40625,0.375,0.40625,16000
4235,0.351179,0.40625,2001-03-01,0.40625,0.40625,0.40625,10000
4240,0.378193,0.4375,2001-02-22,0.4375,0.375,0.40625,122600
4245,0.337672,0.390625,2001-02-14,0.40625,0.390625,0.40625,66000
4250,0.324166,0.375,2001-02-07,0.421875,0.375,0.421875,700
4255,0.337672,0.390625,2001-01-31,0.390625,0.390625,0.390625,0
4260,0.324166,0.375,2001-01-24,0.40625,0.375,0.40625,5500
4265,0.337672,0.390625,2001-01-17,0.40625,0.390625,0.40625,3400
4270,0.351179,0.40625,2001-01-09,0.421875,0.375,0.40625,275000
4275,0.405207,0.46875,2001-01-02,0.46875,0.453125,0.453125,62700
4280,0.364686,0.421875,2000-12-22,0.453125,0.40625,0.4375,123500
4285,0.3917,0.453125,2000-12-15,0.5,0.453125,0.484375,28600
4290,0.432221,0.5,2000-12-08,0.515625,0.484375,0.5,30300
4295,0.418714,0.484375,2000-12-01,0.546875,0.484375,0.546875,15800
4300,0.56729,0.65625,2000-11-24,0.65625,0.65625,0.65625,4500
4305,0.621317,0.71875,2000-11-16,0.78125,0.6875,0.75,42200
4310,0.634824,0.734375,2000-11-09,0.734375,0.59375,0.609375,183400
4315,0.729372,0.84375,2000-11-02,0.921875,0.84375,0.875,43500
4320,0.702359,0.8125,2000-10-26,0.90625,0.78125,0.859375,92700
4325,0.823921,0.953125,2000-10-19,0.984375,0.84375,0.84375,145900
4330,0.60781,0.703125,2000-10-12,0.796875,0.578125,0.59375,911500
4335,0.540276,0.625,2000-10-05,0.6875,0.609375,0.6875,80300
4340,0.540276,0.625,2000-09-28,0.671875,0.609375,0.609375,46500
4345,0.540276,0.625,2000-09-21,0.703125,0.625,0.65625,50800
4350,0.513262,0.59375,2000-09-14,0.625,0.5625,0.625,116600
4355,0.526769,0.609375,2000-09-07,0.640625,0.5625,0.5625,33500
4360,0.580797,0.671875,2000-08-30,0.71875,0.640625,0.71875,54500
4365,0.553783,0.640625,2000-08-23,0.640625,0.546875,0.578125,317900
4370,0.432221,0.5,2000-08-16,0.5,0.484375,0.5,40000
4375,0.418714,0.484375,2000-08-09,0.484375,0.421875,0.421875,156000
4380,0.3917,0.453125,2000-08-02,0.46875,0.421875,0.453125,72200
4385,0.432221,0.5,2000-07-26,0.5,0.5,0.5,10200
4390,0.405207,0.46875,2000-07-19,0.5,0.46875,0.5,5700
4395,0.418714,0.484375,2000-07-12,0.5,0.453125,0.484375,159700
4400,0.418714,0.484375,2000-07-05,0.515625,0.453125,0.515625,131800
4405,0.486248,0.5625,2000-06-27,0.5625,0.484375,0.484375,157300
4410,0.3917,0.453125,2000-06-20,0.453125,0.40625,0.40625,45500
4415,0.432221,0.5,2000-06-13,0.53125,0.484375,0.53125,32500
4420,0.364686,0.421875,2000-06-06,0.5,0.40625,0.5,151200
4425,0.445728,0.515625,2000-05-30,0.53125,0.421875,0.421875,43600
4430,0.418714,0.484375,2000-05-22,0.546875,0.484375,0.5,145100
4435,0.432221,0.5,2000-05-15,0.515625,0.4375,0.5,127700
4440,0.540276,0.625,2000-05-08,0.625,0.5625,0.5625,74800
4445,0.499755,0.578125,2000-05-01,0.65625,0.5625,0.59375,215100
4450,0.540276,0.625,2000-04-24,0.6875,0.625,0.6875,38200
4455,0.472741,0.546875,2000-04-14,0.75,0.546875,0.71875,166300
4460,0.594303,0.6875,2000-04-07,0.703125,0.578125,0.6875,44000
4465,0.513262,0.59375,2000-03-31,0.625,0.515625,0.625,84600
4470,0.56729,0.65625,2000-03-24,0.65625,0.65625,0.65625,10400
4475,0.60781,0.703125,2000-03-17,0.703125,0.515625,0.578125,173600
4480,0.3917,0.453125,2000-03-10,0.515625,0.328125,0.328125,128500
4485,0.351179,0.40625,2000-03-03,0.40625,0.328125,0.40625,5800
4490,0.364686,0.421875,2000-02-25,0.421875,0.40625,0.40625,43500
4495,0.364686,0.421875,2000-02-17,0.421875,0.375,0.421875,33000
4500,0.3917,0.453125,2000-02-10,0.5,0.453125,0.5,43500
4505,0.432221,0.5,2000-02-03,0.53125,0.484375,0.53125,59800
4510,0.324166,0.375,2000-01-27,0.390625,0.34375,0.390625,25400
4515,0.270138,0.3125,2000-01-20,0.390625,0.3125,0.390625,5800
4520,0.364686,0.421875,2000-01-12,0.421875,0.3125,0.3125,3000
4525,0.270138,0.3125,2000-01-05,0.421875,0.3125,0.3125,3000
4527,0.337672,0.390625,2000-01-03,0.40625,0.3125,0.3125,17500